                              File name:	C:\Users\BTSUser\Desktop\Biomedica\Esb Asdhar Alonso OA+MUSICA2.tdf plat 1	
                          Frequency(Hz):	10.000000	
                          Total time(s):	41.758999	
                     Real total time(s):	41.799999	
                   Start of analysis(s):	0.000000	
              Range time of analysis(s):	41.799999	
                        Reference frame:	1	
  Trasversal COP displacement(mm)[m,sd]:	-18.671214	1.517398	
Longitudinal COP displacement(mm)[m,sd]:	72.856736	4.022097	
                       Radius(mm)[m,sd]:	3.724907	2.138120	
                         Max radius(mm):	11.312050	
                         Min radius(mm):	0.157339	
                   Trasversal range(mm):	12.556564	
                 Longitudinal range(mm):	20.887604	
                       Trace length(mm):	411.640927	
                            LFS (1/cm): 	9.443604	
                   Equivalent area(mmq):	471.583174	
                  Equivalent radius(mm):	12.251922	
                      Speed(mm/s)[m,sd]:	9.871485	7.885406	
       Inertial axises(mm)[asseX,asseY]:	3.331695	2.716537	
                    Regression angle:(°)	-43.628487	
                   Geographic area(mmq):	28.433526	
                     Tile dimension(mm):	5.000000	5.000000	
                        Setctors number:	6	
                    Sector amplitude(°):	60.000000	
                       Number of points:	6	
                   Fixed mean area(mmq):	25.524239	
                    Fixed sum area(mmq):	83337.684636	
                Variable mean area(mmq):	22.506360	
                 Variable sum area(mmq):	66402.387953	
                Sway density radius (mm)	2.500000	
                            Peak number 	58	
              Filter, cut-off frequency:	1.000000	
              Peak amplitude (s) [m,sd]:	1.951913	1.661695	
                   Peak time (s) [m,sd]:	0.731579	0.388292	
              Peak distance (mm) [m,sd]:	1.915647	2.125234	
Px spectrum, maximum peak and frequency (Hz):	27.027700	0.019531	
Py spectrum, maximum peak and frequency (Hz):	403.673615	0.019531	
D spectrum, maximum peak and frequency (Hz):	35.780151	0.058594	
               Px spectrum, mean values:	0.459408	0.498520	
               Py spectrum, mean values:	3.227713	0.225011	
                D spectrum, mean values:	0.912178	0.444223	

      Px	      Py	
-20.905594	75.156891	
-20.826202	73.915283	
-20.785919	72.969666	
-20.468582	73.822144	
-20.830246	74.965546	
-21.657318	75.328278	
-21.382797	76.193359	
-21.259964	77.222656	
-21.385132	77.975006	
-21.344360	78.144684	
-21.547913	78.103973	
-21.302856	77.575928	
-20.622665	76.801361	
-20.420883	76.002533	
-20.064194	75.389496	
-19.425583	76.180267	
-18.629944	76.339844	
-18.503616	77.580200	
-20.379044	79.652954	
-20.411209	78.888702	
-19.751404	79.336121	
-19.189377	77.181854	
-18.902237	74.902008	
-18.544952	76.593445	
-19.213989	75.937225	
-19.813629	77.767273	
-20.773026	77.051331	
-21.451187	77.764709	
-21.644333	77.720581	
-21.377838	80.602448	
-20.579788	81.192322	
-20.770676	83.086945	
-20.896622	82.475891	
-20.579788	81.314148	
-20.895370	80.854279	
-20.728210	79.898010	
-20.973648	80.341187	
-20.539810	79.952637	
-20.414734	82.061951	
-20.542679	81.244659	
-20.419235	80.516510	
-20.812302	81.111908	
-20.341553	80.863129	
-20.455017	80.641205	
-21.088440	78.432068	
-20.133316	77.174133	
-19.534195	77.274719	
-18.979767	77.649445	
-18.745987	77.652863	
-18.269058	78.407532	
-18.709015	79.836273	
-19.022537	79.284302	
-19.023651	77.273102	
-19.024216	76.491364	
-19.573181	75.761932	
-19.530228	75.109406	
-19.099976	73.564697	
-19.175049	74.109894	
-19.055099	75.541077	
-19.183380	78.452240	
-19.419067	78.359100	
-20.141418	77.434052	
-20.650238	76.095001	
-20.339935	74.133118	
-20.008255	73.685730	
-19.115753	73.122498	
-19.237076	73.984406	
-18.786102	73.384766	
-19.152756	74.113556	
-19.067398	74.584961	
-19.020737	74.267334	
-18.829208	76.649506	
-19.430267	77.397675	
-20.140106	77.751007	
-20.695526	77.294037	
-20.855896	76.797943	
-20.906128	75.251434	
-20.344086	74.977570	
-20.266495	75.292969	
-20.220886	75.370056	
-20.264557	77.496155	
-20.015457	78.047150	
-19.582520	77.353607	
-20.105316	76.802216	
-20.256271	75.942780	
-20.062408	74.900146	
-19.304977	74.313385	
-19.019440	74.286102	
-19.066544	73.780823	
-20.090439	75.108459	
-19.860779	75.346222	
-19.336670	75.920990	
-19.500000	74.975952	
-19.905304	75.645325	
-19.695892	74.816101	
-19.903397	76.038177	
-19.767044	76.079132	
-19.733749	76.156769	
-19.622681	78.257477	
-19.261612	78.750549	
-19.339050	80.058838	
-19.298279	80.018036	
-18.946655	80.291901	
-19.307144	79.718353	
-18.988373	78.568024	
-19.257782	76.528564	
-19.255844	74.247864	
-18.870987	74.884521	
-18.705872	76.789093	
-18.669662	77.174347	
-18.430817	77.697021	
-18.231262	77.318085	
-18.352753	75.788208	
-18.906708	74.389557	
-19.105423	73.075836	
-19.499435	71.518799	
-19.621948	70.747711	
-19.424103	69.562439	
-18.748276	69.817871	
-18.673538	71.778595	
-18.185547	72.498474	
-18.231979	73.017822	
-18.194260	71.938263	
-18.221481	72.041992	
-18.983200	70.548065	
-19.256897	71.542633	
-19.431381	71.192383	
-19.111954	70.823029	
-19.108032	71.244751	
-18.790070	72.392761	
-19.824387	73.557953	
-18.949463	74.235535	
-17.958298	75.554901	
-17.381943	76.541473	
-17.089035	76.207214	
-16.450150	75.460938	
-17.164734	77.325806	
-17.512512	76.186432	
-18.067932	74.784210	
-18.214767	74.347412	
-17.825485	73.844269	
-17.598602	74.240936	
-17.496277	74.729706	
-17.391251	76.071716	
-17.444138	76.165710	
-17.990097	77.090668	
-17.915741	78.184631	
-18.322830	78.277191	
-18.384628	78.105621	
-18.794250	77.822571	
-18.649460	74.698669	
-18.895172	74.521759	
-18.581375	75.395691	
-17.786545	75.433838	
-17.547318	75.927124	
-16.912827	75.323029	
-16.526123	75.682159	
-17.211502	75.347656	
-17.917007	76.417847	
-19.113556	76.611450	
-19.707809	76.297363	
-20.147324	76.081421	
-20.418030	75.722870	
-20.615341	74.616882	
-20.386581	74.252045	
-19.827026	72.388245	
-18.700333	72.146820	
-18.754333	72.723145	
-17.862000	72.482971	
-18.120346	72.339539	
-18.837662	73.275665	
-19.340286	73.833191	
-19.865677	74.842041	
-20.180573	74.626648	
-20.258194	72.072052	
-19.500885	73.385529	
-18.745941	72.561432	
-19.227188	72.226501	
-20.055588	73.834351	
-20.460159	73.048584	
-19.464752	74.526855	
-18.797256	74.157715	
-19.071442	74.316864	
-19.237000	73.299255	
-19.944321	73.893951	
-20.427353	74.129730	
-20.185730	74.471466	
-20.308792	74.569153	
-20.783020	74.681427	
-20.664200	75.469971	
-20.184036	75.685577	
-19.784607	75.983093	
-19.084137	76.597565	
-19.089035	76.929626	
-18.280045	77.426697	
-17.846085	78.037048	
-17.166122	77.101013	
-16.981659	77.570496	
-17.278687	76.942871	
-17.247452	76.269714	
-17.071320	76.216736	
-17.095840	74.621246	
-17.208008	73.795776	
-17.051010	73.385284	
-16.924774	72.610107	
-17.796402	71.957886	
-18.278183	72.609222	
-18.951706	72.405548	
-19.002609	72.300507	
-18.719116	72.274200	
-18.747101	71.713043	
-18.278793	71.663910	
-18.238678	70.800140	
-18.558853	71.292572	
-18.512650	71.553284	
-18.199738	71.489777	
-18.320724	69.814331	
-18.045959	68.252808	
-18.013474	67.636810	
-18.122055	66.816620	
-18.367584	66.075562	
-18.722778	65.086731	
-18.498688	65.302124	
-18.561203	64.923279	
-18.654144	65.792389	
-18.931320	66.447693	
-19.441284	67.140381	
-19.759048	66.891449	
-19.644135	67.838348	
-18.997910	68.456360	
-19.128845	68.495819	
-18.799896	68.167664	
-18.881882	67.304321	
-18.966522	66.936890	
-18.521088	66.730804	
-17.967255	66.242371	
-17.154892	67.316010	
-17.208084	68.503937	
-17.333969	68.378387	
-17.478958	68.588074	
-17.607346	69.277405	
-18.286087	68.461060	
-18.166412	68.454987	
-17.900131	68.743805	
-17.698456	68.623383	
-17.933014	68.377289	
-17.451569	69.492004	
-17.417831	70.757019	
-17.481247	70.308777	
-17.453903	71.127197	
-17.499039	70.675781	
-17.949677	72.519562	
-17.381393	72.153931	
-18.004044	69.978302	
-18.639236	70.356720	
-18.329987	69.118011	
-18.490845	69.319489	
-18.529678	69.408478	
-18.085388	70.019012	
-17.737778	70.264832	
-16.896713	69.284546	
-16.866043	69.408081	
-16.977188	70.971436	
-16.971664	71.338867	
-17.020874	72.643677	
-17.279633	72.927185	
-17.488708	70.791534	
-17.858292	70.586792	
-17.692841	70.634613	
-17.684723	70.352020	
-17.380981	70.625427	
-16.916748	70.520111	
-17.092346	72.400879	
-17.638336	72.411072	
-17.719284	71.542725	
-17.759415	70.960754	
-17.732285	70.834686	
-17.439865	71.253906	
-17.084579	71.097961	
-17.132965	71.778473	
-17.020950	71.859253	
-17.277023	71.213196	
-17.520279	71.291077	
-17.804962	71.415619	
-17.518036	69.613953	
-17.764923	70.511993	
-17.772888	70.753448	
-17.845642	71.334259	
-17.996628	71.222931	
-18.479248	70.970093	
-18.444748	69.605225	
-18.679184	68.706848	
-18.279556	68.249176	
-18.206451	69.235687	
-18.012238	69.481110	
-18.279999	69.814331	
-18.161880	69.604858	
-18.118683	69.612915	
-18.239899	69.032227	
-17.971619	69.440491	
-18.244766	69.324524	
-18.171280	68.868683	
-18.154541	69.116577	
-17.839050	69.242432	
-17.919907	70.228973	
-17.841415	69.935150	
-18.084778	70.881927	
-18.165192	70.179108	
-18.210709	70.592896	
-18.046738	70.790527	
-18.166138	70.881927	
-18.611374	71.111206	
-18.996231	71.087952	
-19.392975	71.165833	
-19.238617	70.506348	
-18.963181	68.823364	
-18.358200	69.200592	
-18.123566	70.190735	
-17.931763	70.142029	
-17.811111	69.981873	
-18.118683	69.816650	
-17.720657	68.087585	
-17.807495	69.447723	
-17.373947	69.199707	
-17.677750	69.785309	
-17.556366	69.705872	
-17.559433	68.912720	
-17.284714	68.671844	
-17.293503	69.038818	
-17.180450	69.404541	
-17.131516	68.918335	
-17.252838	68.957458	
-17.045898	68.301483	
-16.924896	67.233917	
-17.412186	67.520996	
-17.726074	69.366302	
-18.164581	71.122650	
-18.804596	71.959412	
-19.513397	74.017670	
-19.155273	74.805817	
-20.030991	73.688690	
-20.029907	73.132019	
-19.075348	71.410065	
-18.405258	70.470276	
-17.611542	70.756561	
-16.850098	71.301697	
-16.469086	71.253784	
-16.655975	72.327484	
-16.539368	72.075348	
-16.859604	71.582733	
-17.282715	71.550049	
-18.478134	72.843933	
-18.992447	72.446289	
-18.237473	72.487061	
-16.995468	74.304535	
-15.944183	74.484894	
-15.367493	75.447021	
-14.875168	74.079498	
-15.293320	73.190063	
-16.142929	73.172455	
-16.979691	72.760773	
-17.664902	71.833527	
-18.284851	71.322327	
-18.644836	71.651093	
-18.396576	70.306702	
-18.320114	70.881531	
-18.165192	70.219757	
-17.742706	68.467010	
-17.405350	69.900391	
-17.166702	69.326660	
-17.095078	68.911499	
-17.365524	69.699036	
-17.373947	69.199707	
-17.487076	68.375916	
-17.772339	67.312439	
-17.700272	67.397125	
-17.047272	66.492065	
-16.736038	67.355408	
-16.939987	66.454773	
-17.740326	66.779388	
-18.527206	67.921844	
-19.203949	69.072662	
-20.194321	68.085907	
-19.873123	67.588196	
-19.557953	67.384003	
-19.550766	66.477722	
-18.634705	66.563965	
-17.877457	65.086670	
-17.640701	66.400696	
-17.612671	66.485870	
-18.149033	66.111847	
-17.740967	65.715424	
-13.014557	68.280396	
-11.941116	63.764526	
-14.927887	62.199341	
-19.330917	62.738678	
-22.942749	65.989502	
-23.945053	69.377106	
-22.978348	73.091675	
-24.497681	72.296356	
-24.491348	72.032806	
-24.169998	69.564636	
-21.827255	68.179504	
-20.312393	67.654480	
-18.501984	69.299866	
-18.681931	68.651123	
-19.834137	65.926880	
-19.677460	64.612122	
-17.896378	65.571472	
-16.448547	65.571320	
-15.242035	68.527710	
-12.926453	72.446838	
-13.177963	75.848419	
-15.501877	78.827820	
-17.894531	80.085876	
-18.849747	80.122345	
-18.614716	81.893036	
-19.210464	82.163879	
