                              File name:	C:\Users\BTSUser\Desktop\Biomedica\Esb Asdhar Alonso OC2.tdf plat 1	
                          Frequency(Hz):	10.000000	
                          Total time(s):	41.360001	
                     Real total time(s):	41.400002	
                   Start of analysis(s):	0.000000	
              Range time of analysis(s):	41.400002	
                        Reference frame:	1	
  Trasversal COP displacement(mm)[m,sd]:	-33.902150	1.728791	
Longitudinal COP displacement(mm)[m,sd]:	35.925911	3.082281	
                       Radius(mm)[m,sd]:	3.068215	1.747123	
                         Max radius(mm):	11.187222	
                         Min radius(mm):	0.164161	
                   Trasversal range(mm):	8.990555	
                 Longitudinal range(mm):	16.859192	
                       Trace length(mm):	417.282535	
                            LFS (1/cm): 	14.109411	
                   Equivalent area(mmq):	353.978577	
                  Equivalent radius(mm):	10.614842	
                      Speed(mm/s)[m,sd]:	10.103693	6.618411	
       Inertial axises(mm)[asseX,asseY]:	2.890134	2.033790	
                    Regression angle:(°)	40.947403	
                   Geographic area(mmq):	18.466044	
                     Tile dimension(mm):	5.000000	5.000000	
                        Setctors number:	6	
                    Sector amplitude(°):	60.000000	
                       Number of points:	6	
                   Fixed mean area(mmq):	19.488865	
                    Fixed sum area(mmq):	97069.930630	
                Variable mean area(mmq):	16.540904	
                 Variable sum area(mmq):	76042.367775	
                Sway density radius (mm)	2.500000	
                            Peak number 	62	
              Filter, cut-off frequency:	1.000000	
              Peak amplitude (s) [m,sd]:	1.365709	0.592584	
                   Peak time (s) [m,sd]:	0.677049	0.464540	
              Peak distance (mm) [m,sd]:	1.857357	1.394925	
Px spectrum, maximum peak and frequency (Hz):	62.540302	0.019531	
Py spectrum, maximum peak and frequency (Hz):	150.606140	0.019531	
D spectrum, maximum peak and frequency (Hz):	21.047565	0.195312	
               Px spectrum, mean values:	0.596303	0.323977	
               Py spectrum, mean values:	1.895554	0.332927	
                D spectrum, mean values:	0.609014	0.582169	

      Px	      Py	
-32.701309	45.314667	
-33.149567	43.051453	
-33.163467	45.801514	
-33.005951	47.077179	
-33.032013	42.110291	
-33.588242	41.734344	
-35.216217	42.596985	
-34.869400	41.277222	
-34.328491	40.952118	
-33.573914	39.809967	
-32.767593	39.635590	
-33.420883	42.004211	
-33.192276	44.272980	
-31.995163	44.248810	
-31.463242	44.523285	
-31.099167	45.202667	
-30.637131	45.606781	
-30.751190	45.289337	
-30.551636	43.026703	
-31.370895	40.871063	
-31.495117	40.924561	
-31.959030	38.582092	
-32.348663	38.315887	
-32.517944	37.412201	
-31.398087	35.667542	
-30.709808	35.398499	
-31.629562	37.072296	
-31.573730	38.440094	
-32.027603	38.687225	
-32.547684	38.644592	
-33.108215	37.861115	
-33.561050	37.753418	
-32.972992	36.848267	
-33.112457	35.727264	
-32.094055	36.709229	
-31.121994	37.724335	
-30.306549	37.766479	
-30.000885	38.400726	
-30.443558	38.140930	
-30.792282	39.750519	
-31.081406	38.588135	
-30.970917	37.414062	
-31.476028	35.162262	
-31.761490	35.286835	
-32.069199	36.204498	
-31.797821	37.379578	
-31.629684	37.869080	
-31.647919	39.001007	
-30.821198	40.838531	
-30.110016	41.518341	
-29.935654	41.659302	
-30.117340	39.866425	
-30.454147	38.169495	
-31.116989	38.132568	
-30.997375	36.971405	
-30.849060	37.538208	
-30.944641	38.062256	
-31.326584	39.536011	
-31.449783	40.282013	
-32.553268	40.126282	
-33.050858	40.906342	
-32.960251	41.129852	
-32.678711	38.990845	
-32.073380	38.279297	
-31.151154	40.542175	
-30.926239	41.511414	
-31.060120	39.483765	
-30.868790	40.282745	
-31.568726	38.807892	
-31.334457	37.715515	
-31.865677	34.817749	
-32.093491	34.735596	
-31.938614	32.796631	
-32.093216	33.953186	
-31.613815	35.683441	
-31.238495	38.174561	
-31.808151	39.145477	
-31.810226	37.904724	
-31.706268	38.236206	
-31.724136	39.416748	
-31.629944	38.650604	
-31.861481	38.056183	
-32.727570	37.442749	
-32.011200	37.340698	
-31.191055	36.967194	
-31.336456	36.741119	
-31.135880	37.346771	
-31.052612	37.495758	
-30.990204	36.629486	
-31.109055	35.160004	
-31.399719	35.576477	
-31.626938	37.157318	
-31.950745	37.497772	
-31.210800	37.001312	
-31.244232	36.697388	
-31.300949	37.236572	
-31.836288	37.677429	
-32.283569	39.211487	
-32.862350	40.706665	
-32.760696	39.936554	
-32.828613	40.040588	
-33.475708	38.767365	
-33.380356	37.663940	
-33.272095	36.581055	
-33.085938	36.401672	
-32.300888	35.992920	
-32.155716	34.888702	
-31.623962	35.506378	
-31.816010	36.847626	
-31.968994	37.683899	
-32.127029	37.189850	
-32.620361	37.520294	
-32.837845	37.416565	
-33.004639	37.183746	
-33.334534	37.379883	
-33.737228	38.773285	
-34.480530	39.475311	
-34.791855	39.622833	
-35.124161	40.296844	
-35.522385	40.540009	
-34.639008	39.967712	
-34.164841	38.683533	
-33.904053	38.718262	
-33.530746	40.691254	
-33.312332	39.885498	
-33.091248	40.085083	
-33.669464	38.722382	
-33.883148	39.027954	
-34.145340	37.985809	
-34.847122	37.708771	
-34.601669	36.621063	
-34.683823	37.708771	
-34.480530	39.556976	
-34.210892	39.219513	
-34.117813	37.861511	
-34.122009	36.806030	
-34.566299	37.075073	
-34.881638	37.030182	
-35.100754	36.238617	
-35.681000	36.147705	
-35.264252	37.100952	
-34.494690	36.392334	
-33.755203	36.506653	
-33.226044	36.207855	
-33.560669	36.726288	
-33.465652	36.780640	
-33.004639	37.142944	
-33.408325	38.621460	
-33.118439	37.949158	
-33.191086	37.340942	
-33.415970	37.379883	
-33.928085	36.728546	
-33.484329	37.141022	
-34.382614	36.692993	
-34.865463	34.355530	
-35.263901	33.407990	
-35.293335	32.205383	
-34.828339	31.972717	
-34.598923	31.086395	
-33.628372	31.863312	
-32.967072	32.335938	
-32.808777	31.762604	
-32.647491	32.454773	
-31.967361	32.301453	
-32.765808	32.323120	
-33.293549	32.297394	
-33.691803	33.197144	
-33.763840	32.939850	
-33.361008	32.448456	
-32.841476	33.435272	
-32.430832	34.408447	
-32.867874	34.048523	
-33.552063	36.128601	
-34.000351	37.331207	
-33.832855	37.522949	
-34.377090	36.946686	
-34.540558	37.071533	
-34.311325	36.699463	
-33.924088	37.867920	
-33.140793	36.443359	
-33.760498	36.921021	
-33.842072	37.206512	
-34.060425	36.910004	
-34.520020	36.425446	
-34.279297	34.126556	
-33.685089	33.963959	
-33.752167	34.580200	
-33.938858	34.142303	
-34.171371	33.154297	
-33.843674	30.481110	
-34.307770	31.405243	
-34.548340	31.692780	
-35.381119	32.913696	
-35.985138	32.546173	
-36.096878	34.256531	
-35.984818	34.803436	
-34.968231	34.956543	
-33.999527	35.482880	
-32.769287	35.419830	
-31.705383	35.465668	
-31.397186	34.866974	
-31.521576	33.851166	
-32.160233	32.241150	
-32.896515	32.621887	
-33.610199	33.074707	
-34.339844	33.863495	
-34.985916	33.405609	
-35.256302	32.784485	
-36.486206	32.483490	
-38.076187	33.692749	
-37.765930	33.179169	
-37.505096	35.409332	
-36.196854	35.060760	
-34.667023	34.848663	
-32.985092	32.146851	
-32.803497	31.307434	
-33.089127	31.432098	
-33.748978	32.147064	
-34.584198	32.181458	
-35.528534	33.146027	
-35.664505	32.998474	
-35.702591	32.501068	
-35.174850	32.782257	
-34.665497	31.484924	
-34.487244	32.205200	
-35.108521	31.729218	
-35.206360	31.790924	
-35.878601	31.614319	
-36.626389	31.723083	
-36.170914	32.199066	
-35.440689	32.438110	
-34.004028	34.293915	
-33.288986	33.609375	
-33.216461	33.785828	
-33.307175	35.386475	
-33.592438	35.307220	
-33.800491	35.154388	
-33.618820	35.537048	
-34.600708	34.577301	
-35.355774	35.556305	
-35.979965	35.211945	
-35.218674	34.884857	
-34.708237	35.914551	
-34.515121	36.955688	
-34.678604	37.181274	
-34.449051	37.672119	
-34.499985	36.928162	
-34.571014	36.869690	
-34.362411	36.211975	
-34.555481	36.133453	
-34.789566	35.144012	
-35.654633	33.276764	
-35.765244	32.816711	
-35.862915	34.109558	
-35.993729	33.908844	
-36.127411	34.290771	
-36.342270	33.566803	
-36.009552	32.778229	
-35.151184	31.773132	
-35.395996	31.033386	
-35.083389	31.620667	
-34.839233	31.327972	
-34.532928	31.838074	
-34.176254	32.787140	
-33.748978	32.147064	
-33.936295	32.295349	
-33.758789	31.332672	
-34.471283	31.237305	
-34.848450	30.518036	
-35.573685	31.874786	
-36.028870	31.557648	
-36.531693	31.995544	
-36.310577	31.768097	
-35.942352	32.047638	
-35.351913	34.226227	
-35.332138	32.981964	
-35.356110	32.721832	
-34.813461	33.024658	
-34.415848	32.334106	
-34.396408	33.502075	
-34.691315	32.248230	
-34.589417	32.470825	
-35.212204	33.068665	
-35.775940	33.725098	
-35.822006	34.138611	
-36.050110	34.952606	
-36.313354	36.159698	
-36.069336	37.182800	
-35.739441	39.272552	
-36.497391	39.163055	
-36.781631	34.756378	
-35.793991	33.249664	
-35.956390	33.787933	
-35.857361	33.765808	
-35.747025	34.803986	
-35.355774	35.515533	
-35.135086	34.545380	
-35.095062	33.644196	
-34.631149	34.441254	
-34.662659	36.043610	
-34.585983	35.833038	
-34.779282	35.451721	
-35.286743	35.740417	
-35.059006	35.040375	
-34.829590	33.988892	
-34.967743	33.970612	
-34.911087	33.744415	
-34.874588	33.662201	
-33.689606	32.574951	
-32.280533	32.452515	
-32.625641	33.126587	
-32.639603	34.529907	
-33.375305	35.183197	
-34.041138	37.371979	
-34.906982	37.902679	
-35.081390	37.408936	
-34.591309	36.287750	
-34.632050	36.410004	
-34.922592	35.972595	
-35.367218	36.720551	
-35.743240	37.139771	
-35.228851	37.514984	
-35.369965	36.953369	
-35.336609	36.727020	
-35.567078	34.820801	
-35.640305	33.792175	
-35.291122	34.424500	
-34.564789	34.210388	
-34.218338	35.499817	
-33.795807	34.365967	
-33.846588	35.527893	
-33.666611	35.682098	
-33.770325	36.023743	
-33.580750	35.834747	
-33.588318	35.462067	
-33.666611	35.559570	
-34.376755	35.869415	
-34.708878	36.581207	
-34.208801	36.062561	
-33.354218	35.547668	
-32.971039	37.687469	
-33.310211	38.400055	
-33.114944	38.744415	
-33.210236	37.792450	
-33.300659	37.192474	
-32.542252	37.091400	
-32.848068	37.423004	
-32.925385	39.598175	
-33.797775	38.840240	
-34.909714	39.749695	
-36.118011	39.621429	
-35.179764	38.383789	
-31.881683	37.084564	
-29.085632	35.865387	
-30.535080	36.420074	
-32.603653	38.365417	
-33.809464	39.332123	
-33.959976	38.316711	
-33.471695	38.960205	
-33.957275	37.461914	
-34.570236	34.960785	
-35.206680	33.345703	
-35.435333	31.860901	
-35.984604	31.725098	
-36.438553	30.988403	
-37.024414	31.179565	
-37.389877	30.902252	
-37.175232	30.882996	
-36.111099	32.625854	
-34.875198	33.337097	
-33.658768	33.733063	
-33.800095	34.291656	
-35.190994	33.495819	
-35.855103	33.066620	
-36.229645	32.589142	
-36.264893	33.403992	
-35.821487	33.277374	
-35.663422	32.868134	
-34.951355	33.167725	
-34.783691	34.142578	
-35.273483	35.382874	
-35.706787	35.747650	
-37.224533	34.836548	
-37.212601	35.561859	
-37.248550	35.887604	
-36.992981	35.958344	
-36.822937	36.273560	
-36.355240	35.511658	
-35.295303	35.822449	
-33.724228	35.609467	
-34.017914	33.289490	
-35.055206	35.411987	
-35.722885	35.517822	
-36.203629	36.167755	
-35.671387	36.243134	
-34.545227	35.751556	
-34.932465	36.431122	
-35.982452	36.687256	
-37.120758	36.454315	
-36.978394	35.443878	
-36.504059	34.177338	
-35.017334	33.358551	
-34.629807	31.774261	
-35.098969	31.387329	
-36.005753	31.166016	
-36.963577	30.217987	
-37.499313	30.647400	
-37.155533	30.784332	
-36.737000	31.789062	
-34.864670	31.602631	
-34.187195	31.934052	
-34.736542	30.977234	
-35.376343	31.132568	
-35.537735	31.262817	
