                              File name:	C:\Users\BTSUser\Desktop\Biomedica\Esb Asdhar Alonso OC1.tdf plat 1	
                          Frequency(Hz):	10.000000	
                          Total time(s):	42.967999	
                     Real total time(s):	43.000000	
                   Start of analysis(s):	0.000000	
              Range time of analysis(s):	43.000000	
                        Reference frame:	1	
  Trasversal COP displacement(mm)[m,sd]:	-22.843095	2.060960	
Longitudinal COP displacement(mm)[m,sd]:	39.936999	3.342601	
                       Radius(mm)[m,sd]:	3.354817	2.034579	
                         Max radius(mm):	9.300224	
                         Min radius(mm):	0.083230	
                   Trasversal range(mm):	10.390900	
                 Longitudinal range(mm):	16.881714	
                       Trace length(mm):	451.056879	
                            LFS (1/cm): 	12.756863	
                   Equivalent area(mmq):	416.652949	
                  Equivalent radius(mm):	11.516282	
                      Speed(mm/s)[m,sd]:	10.514146	7.335470	
       Inertial axises(mm)[asseX,asseY]:	2.177610	3.267806	
                    Regression angle:(°)	10.315123	
                   Geographic area(mmq):	22.355593	
                     Tile dimension(mm):	5.000000	5.000000	
                        Setctors number:	6	
                    Sector amplitude(°):	60.000000	
                       Number of points:	6	
                   Fixed mean area(mmq):	32.031045	
                    Fixed sum area(mmq):	135648.567788	
                Variable mean area(mmq):	27.435017	
                 Variable sum area(mmq):	113339.451823	
                Sway density radius (mm)	2.500000	
                            Peak number 	67	
              Filter, cut-off frequency:	1.000000	
              Peak amplitude (s) [m,sd]:	1.554472	1.263641	
                   Peak time (s) [m,sd]:	0.650000	0.417410	
              Peak distance (mm) [m,sd]:	2.107628	1.806175	
Px spectrum, maximum peak and frequency (Hz):	140.039825	0.019531	
Py spectrum, maximum peak and frequency (Hz):	168.852997	0.019531	
D spectrum, maximum peak and frequency (Hz):	48.111237	0.019531	
               Px spectrum, mean values:	0.847588	0.203925	
               Py spectrum, mean values:	2.229451	0.318394	
                D spectrum, mean values:	0.825986	0.499841	

      Px	      Py	
-22.067795	44.828430	
-22.582138	44.493988	
-22.907806	45.359161	
-22.581818	45.397583	
-22.663345	45.438354	
-23.026306	46.253510	
-23.059891	44.696259	
-22.464890	44.948944	
-21.584839	46.895996	
-20.429001	47.275177	
-19.518188	47.948730	
-19.025589	48.216766	
-19.502533	47.550293	
-20.113251	45.953430	
-20.317398	44.566681	
-20.591202	45.233002	
-20.434799	45.540833	
-21.032043	44.096771	
-21.678955	42.287659	
-21.478531	42.289368	
-21.277313	43.194183	
-21.401993	45.143860	
-21.551804	45.040894	
-21.311905	45.330994	
-20.911392	45.049652	
-21.037048	44.833832	
-20.884277	45.699219	
-20.673721	46.455994	
-20.954514	46.362701	
-21.317703	44.058258	
-20.597214	43.606171	
-20.592590	42.393433	
-20.560486	42.397308	
-20.317108	42.601776	
-19.606689	44.782227	
-19.197800	45.614838	
-19.641968	45.067535	
-20.354568	42.744415	
-20.803482	41.657532	
-20.796753	42.599976	
-21.353546	43.602631	
-21.073105	40.785065	
-21.112320	41.261688	
-21.350769	40.220001	
-21.435486	40.321228	
-20.917191	39.083679	
-19.883774	40.062744	
-19.507355	43.737579	
-19.233734	45.158752	
-19.125870	43.136719	
-18.875397	40.156036	
-19.243011	38.535187	
-18.925797	38.607697	
-19.484421	40.411316	
-19.602295	43.343750	
-19.962173	45.558777	
-20.311462	45.817719	
-20.837448	43.355682	
-20.193573	42.476532	
-20.714081	40.626282	
-21.196930	40.398560	
-21.282318	39.729218	
-21.438126	37.229736	
-21.280609	35.959167	
-21.488464	36.717896	
-20.839371	38.978851	
-20.803925	40.551788	
-19.595200	42.335541	
-18.883820	43.884094	
-18.547394	43.656830	
-18.957153	43.697601	
-19.961914	43.120148	
-20.594421	42.291199	
-21.634018	41.606934	
-21.634018	41.647766	
-21.911316	40.167572	
-22.156265	39.306976	
-21.835526	38.774536	
-21.758530	38.547150	
-21.359756	38.895294	
-21.320969	39.394501	
-21.156555	39.494141	
-21.404449	39.655212	
-21.157074	38.150330	
-21.284286	38.223877	
-21.118988	38.064178	
-21.043991	38.295746	
-21.164673	38.600220	
-20.444443	39.661194	
-20.084915	40.328033	
-20.090805	41.380005	
-20.007202	41.603027	
-20.326736	41.497528	
-20.690430	40.862366	
-20.529572	40.037140	
-20.237839	37.994080	
-20.332336	38.423859	
-21.037933	36.894836	
-21.088486	35.866821	
-21.836273	37.049225	
-22.278946	39.085358	
-22.639862	40.398071	
-22.441040	40.476532	
-22.400223	40.517334	
-22.002853	41.200104	
-21.280594	42.332611	
-20.803040	42.397095	
-20.120148	42.748505	
-20.404404	42.584717	
-21.198349	42.701111	
-20.764755	41.577271	
-20.521103	39.808289	
-20.610321	38.194672	
-20.087234	37.777466	
-19.956512	39.434174	
-19.996857	40.339294	
-20.447098	42.441864	
-20.924698	42.027893	
-20.644272	41.229187	
-20.997070	36.935699	
-20.883881	37.507965	
-21.205826	37.697540	
-21.404419	39.566406	
-21.682465	39.763824	
-21.841675	39.645966	
-21.917725	40.053131	
-21.325531	40.671661	
-20.612625	40.292908	
-20.444977	39.318939	
-20.563965	38.942169	
-20.806412	39.688293	
-21.007812	39.651917	
-21.367111	38.864410	
-21.287674	39.200012	
-21.770172	39.012207	
-22.086777	38.563843	
-21.891998	38.414001	
-21.569901	39.129089	
-21.768982	40.381958	
-21.720947	40.101624	
-22.558716	39.535889	
-22.803604	39.384033	
-22.960724	39.864197	
-22.686401	39.197601	
-22.039581	39.456238	
-21.607864	39.690796	
-21.167892	40.220734	
-20.803055	40.135559	
-20.525589	41.085510	
-21.089905	40.939758	
-21.207306	40.568207	
-21.360916	41.161133	
-21.006943	41.537720	
-21.206390	41.640137	
-21.201904	40.935669	
-21.561401	41.040863	
-21.683350	39.501129	
-22.405334	39.651520	
-22.401077	39.684845	
-22.517975	39.454407	
-22.915283	39.978424	
-23.043030	38.485352	
-23.120178	37.267700	
-22.640839	37.771057	
-22.202744	37.954865	
-22.126053	37.849182	
-21.445175	37.123108	
-21.082230	37.958679	
-20.845673	36.678986	
-21.047287	36.647705	
-21.570450	35.733795	
-22.049606	36.675140	
-22.121918	36.148254	
-22.046021	36.340881	
-21.293472	37.890991	
-21.127121	40.220734	
-21.050110	41.498047	
-21.365479	42.479401	
-21.529617	42.132782	
-22.047318	39.960327	
-21.607468	40.633636	
-21.564545	39.700439	
-21.769791	39.996490	
-22.369812	39.841705	
-22.527817	40.667999	
-23.082916	41.114929	
-22.920120	40.211121	
-23.361923	41.035461	
-23.123932	39.045044	
-22.681183	38.815735	
-22.768051	38.448730	
-22.452393	37.769897	
-22.044449	37.808380	
-22.370224	37.692841	
-21.891647	37.649353	
-21.524002	37.891968	
-21.727097	37.392090	
-22.651169	37.696045	
-22.645844	38.103394	
-23.252335	39.205109	
-23.206802	37.763794	
-23.008636	37.837921	
-22.605103	38.225616	
-22.007141	38.147034	
-21.972565	37.954041	
-22.856079	37.543701	
-23.094452	37.466034	
-23.007904	37.092621	
-22.610443	37.899658	
-22.166611	39.150299	
-21.850113	39.498718	
-21.565521	39.233704	
-21.810532	39.996490	
-22.044098	38.671814	
-22.044922	39.048798	
-22.248642	39.607544	
-22.410919	39.578461	
-22.931870	36.863831	
-23.369431	37.543365	
-22.973328	37.731812	
-22.366104	37.653015	
-22.441727	38.667664	
-22.365768	38.514984	
-22.523148	39.309265	
-22.645859	38.291748	
-23.077576	38.024963	
-23.084122	37.541077	
-23.043884	38.025482	
-23.118912	38.590424	
-22.925949	39.162018	
-22.768356	37.626801	
-22.085388	36.180969	
-21.842804	37.021545	
-21.846252	36.412445	
-21.650070	34.785553	
-21.654770	33.447662	
-21.770798	34.319214	
-22.010635	35.974365	
-22.206741	38.375366	
-22.166962	38.450592	
-22.160858	37.878387	
-22.207657	37.849182	
-22.085602	36.822662	
-22.482727	38.283386	
-22.721634	40.064148	
-22.435593	41.647003	
-22.997055	41.455444	
-23.031204	42.916534	
-22.767197	41.875031	
-21.642029	42.886383	
-21.126266	42.028320	
-20.881241	42.889191	
-21.401291	41.942657	
-22.120483	39.721222	
-23.113602	39.079376	
-23.195877	39.688477	
-23.557068	39.754181	
-24.273987	39.937866	
-25.451462	40.884216	
-26.313507	41.016113	
-25.154144	38.733490	
-23.875626	37.563660	
-22.076965	36.074951	
-21.878891	35.665771	
-22.198090	36.555878	
-22.992004	37.233154	
-23.240952	37.345581	
-23.440277	36.414307	
-22.763245	36.267670	
-22.809448	36.682709	
-22.605774	36.217560	
-22.803925	36.145691	
-23.202057	36.404358	
-23.965744	36.101654	
-24.477982	36.697632	
-25.040207	37.490448	
-24.908875	37.374176	
-24.713898	38.391754	
-23.684616	36.335114	
-23.284409	35.680634	
-23.885468	35.457642	
-24.049545	36.746857	
-24.004517	37.377991	
-24.639465	37.137268	
-25.875961	35.718292	
-26.028061	35.566559	
-26.328796	34.197327	
-26.665573	34.405060	
-26.713257	33.159393	
-26.401031	32.517883	
-25.367111	32.935883	
-24.795670	35.153381	
-24.324066	34.592529	
-23.646805	35.349792	
-23.242401	36.225922	
-23.413101	36.659851	
-23.206802	37.763794	
-22.320358	38.562012	
-22.558578	39.635529	
-21.840927	41.450439	
-22.124619	41.303619	
-22.558411	39.982513	
-24.124252	38.662048	
-24.483047	37.194153	
-25.285126	35.604431	
-25.486115	36.396637	
-24.603928	36.851624	
-23.965256	37.949219	
-23.283768	39.645508	
-23.521591	39.264771	
-24.402863	37.292053	
-24.673706	35.640656	
-25.275635	34.752441	
-25.120331	33.538330	
-24.271072	34.687805	
-23.406281	35.421051	
-22.926743	37.573944	
-22.676056	38.253937	
-23.078796	37.867310	
-23.330521	37.384094	
-23.718353	36.261536	
-23.960083	33.583069	
-24.127243	31.936615	
-24.920059	32.953674	
-25.160370	32.778778	
-25.821762	34.422241	
-26.473938	34.513916	
-26.594299	35.222961	
-26.441376	37.033936	
-25.593079	36.732452	
-24.590179	37.837738	
-23.605179	38.023560	
-22.762405	39.556305	
-22.563263	40.994415	
-22.562973	41.525726	
-23.444839	40.580536	
-24.163803	38.400055	
-24.438843	38.355103	
-25.084915	38.920776	
-25.324844	38.508087	
-25.112045	39.259705	
-24.834366	38.170898	
-25.315277	37.486298	
-25.444931	36.505096	
-25.445145	37.260040	
-25.263489	36.182465	
-25.641418	37.488556	
-24.843277	38.288666	
-24.279480	38.668152	
-23.963928	38.631561	
-24.207123	38.845123	
-24.236130	38.061859	
-24.129532	38.294708	
-24.079910	37.915833	
-24.237640	37.423187	
-25.020050	37.038269	
-24.960220	35.617615	
-25.318542	34.890869	
-25.804962	33.918396	
-25.603760	34.072205	
-25.524597	35.274109	
-25.613510	36.920319	
-25.559875	37.366241	
-25.169540	39.154572	
-25.004349	38.889832	
-25.279587	37.859741	
-24.959702	38.404694	
-24.403549	37.166138	
-24.248184	38.062500	
-23.921692	40.253448	
-24.252808	40.287933	
-24.809357	38.965790	
-24.518188	40.761780	
-23.958176	40.804321	
-25.129425	42.170441	
-26.203262	42.201355	
-26.157715	44.477417	
-27.134262	40.305725	
-23.314392	40.691040	
-22.726624	39.465546	
-22.050064	37.999817	
-22.681244	38.633057	
-24.115097	38.961212	
-25.149292	41.779022	
-25.984024	44.442902	
-26.623734	47.775452	
-25.848801	48.738129	
-25.596054	48.818329	
-26.397949	47.772034	
-27.216766	46.034973	
-26.949188	46.021912	
-26.644150	46.051666	
-25.954071	47.190308	
-25.338287	48.043945	
-25.013565	47.704163	
-24.487839	47.144836	
-25.006866	45.257080	
-25.703705	45.799408	
-26.125641	44.270111	
-26.957336	44.305634	
-27.126144	43.711731	
-26.989853	43.204651	
-26.700363	46.472778	
-26.649261	46.507202	
-26.494675	44.475250	
-26.169632	41.950470	
-25.133347	39.625122	
-24.687805	39.771973	
-24.334641	40.746643	
-23.844055	43.308350	
-24.212585	45.654114	
-24.608078	47.655945	
-25.703506	47.571533	
-26.462067	47.052490	
-26.522018	46.973114	
-26.897690	46.819641	
-26.690140	45.561707	
-26.572922	45.153381	
-25.900711	43.429718	
-24.585556	42.494415	
-26.271942	39.332886	
-27.510315	39.624146	
-27.172134	40.596252	
-28.051407	40.664948	
-28.938293	41.676239	
-28.734528	41.676239	
-28.255768	42.622284	
-27.145462	42.754486	
-26.346985	43.247223	
-25.630264	43.065826	
